onset	duration	sample	value	event_code	user_answer	correct_answer	target_count
0	n/a	0	break cnt	break cnt	n/a	n/a	8
34.182	n/a	17091	seqLearning_start	91	n/a	n/a	8
43.506	n/a	21753	learningBlock_1	31	n/a	n/a	8
43.524	n/a	21762	dot_no1_ON	11	n/a	n/a	8
44.112	n/a	22056	dot_no1_OFF	21	n/a	n/a	8
45.434	n/a	22717	dot_no6_ON	16	n/a	n/a	8
46.024	n/a	23012	dot_no6_OFF	26	n/a	n/a	8
47.344	n/a	23672	dot_no4_ON	14	n/a	n/a	8
47.932	n/a	23966	dot_no4_OFF	24	n/a	n/a	8
49.254	n/a	24627	dot_no2_ON	12	n/a	n/a	8
49.842	n/a	24921	dot_no2_OFF	22	n/a	n/a	8
51.164	n/a	25582	dot_no7_ON	17	n/a	n/a	8
51.752	n/a	25876	dot_no7_OFF	27	n/a	n/a	8
53.074	n/a	26537	dot_no3_ON	13	n/a	n/a	8
53.662	n/a	26831	dot_no3_OFF	23	n/a	n/a	8
54.984	n/a	27492	dot_no8_ON	18	n/a	n/a	8
55.572	n/a	27786	dot_no8_OFF	28	n/a	n/a	8
56.894	n/a	28447	dot_no5_ON	15	n/a	n/a	8
57.482	n/a	28741	dot_no5_OFF	25	n/a	n/a	8
58.804	n/a	29402	dot_no2_ON	12	n/a	n/a	8
59.392	n/a	29696	dot_no2_OFF	22	n/a	n/a	8
60.714	n/a	30357	dot_no7_ON	17	n/a	n/a	8
61.302	n/a	30651	dot_no7_OFF	27	2-6-4-7-3-5-5-1-8-5	1-6-4-2-7-3-8-5-2-7	8
120.638	n/a	60319	learningBlock_2	32	n/a	n/a	8
120.654	n/a	60327	dot_no1_ON	11	n/a	n/a	8
121.242	n/a	60621	dot_no1_OFF	21	n/a	n/a	8
122.564	n/a	61282	dot_no6_ON	16	n/a	n/a	8
123.152	n/a	61576	dot_no6_OFF	26	n/a	n/a	8
124.474	n/a	62237	dot_no4_ON	14	n/a	n/a	8
125.064	n/a	62532	dot_no4_OFF	24	n/a	n/a	8
126.384	n/a	63192	dot_no2_ON	12	n/a	n/a	8
126.972	n/a	63486	dot_no2_OFF	22	n/a	n/a	8
128.294	n/a	64147	dot_no7_ON	17	n/a	n/a	8
128.882	n/a	64441	dot_no7_OFF	27	n/a	n/a	8
130.204	n/a	65102	dot_no3_ON	13	n/a	n/a	8
130.794	n/a	65397	dot_no3_OFF	23	n/a	n/a	8
132.114	n/a	66057	dot_no8_ON	18	n/a	n/a	8
132.702	n/a	66351	dot_no8_OFF	28	n/a	n/a	8
134.024	n/a	67012	dot_no5_ON	15	n/a	n/a	8
134.614	n/a	67307	dot_no5_OFF	25	n/a	n/a	8
135.934	n/a	67967	dot_no2_ON	12	n/a	n/a	8
136.522	n/a	68261	dot_no2_OFF	22	n/a	n/a	8
137.844	n/a	68922	dot_no7_ON	17	n/a	n/a	8
138.434	n/a	69217	dot_no7_OFF	27	1-5-3-2-6-8-4-7-2-6	1-6-4-2-7-3-8-5-2-7	8
197.566	n/a	98783	learningBlock_3	33	n/a	n/a	8
197.574	n/a	98787	dot_no1_ON	11	n/a	n/a	8
198.164	n/a	99082	dot_no1_OFF	21	n/a	n/a	8
199.484	n/a	99742	dot_no6_ON	16	n/a	n/a	8
200.074	n/a	100037	dot_no6_OFF	26	n/a	n/a	8
201.394	n/a	100697	dot_no4_ON	14	n/a	n/a	8
201.984	n/a	100992	dot_no4_OFF	24	n/a	n/a	8
203.304	n/a	101652	dot_no2_ON	12	n/a	n/a	8
203.894	n/a	101947	dot_no2_OFF	22	n/a	n/a	8
205.214	n/a	102607	dot_no7_ON	17	n/a	n/a	8
205.804	n/a	102902	dot_no7_OFF	27	n/a	n/a	8
207.124	n/a	103562	dot_no3_ON	13	n/a	n/a	8
207.714	n/a	103857	dot_no3_OFF	23	n/a	n/a	8
209.034	n/a	104517	dot_no8_ON	18	n/a	n/a	8
209.624	n/a	104812	dot_no8_OFF	28	n/a	n/a	8
210.944	n/a	105472	dot_no5_ON	15	n/a	n/a	8
211.534	n/a	105767	dot_no5_OFF	25	n/a	n/a	8
212.854	n/a	106427	dot_no2_ON	12	n/a	n/a	8
213.444	n/a	106722	dot_no2_OFF	22	n/a	n/a	8
214.764	n/a	107382	dot_no7_ON	17	n/a	n/a	8
215.354	n/a	107677	dot_no7_OFF	27	1-5-3-2-6-4-8-7-5-2	1-6-4-2-7-3-8-5-2-7	8
236.288	n/a	118144	learningBlock_4	34	n/a	n/a	8
236.304	n/a	118152	dot_no1_ON	11	n/a	n/a	8
236.894	n/a	118447	dot_no1_OFF	21	n/a	n/a	8
238.214	n/a	119107	dot_no6_ON	16	n/a	n/a	8
238.804	n/a	119402	dot_no6_OFF	26	n/a	n/a	8
240.124	n/a	120062	dot_no4_ON	14	n/a	n/a	8
240.714	n/a	120357	dot_no4_OFF	24	n/a	n/a	8
242.034	n/a	121017	dot_no2_ON	12	n/a	n/a	8
242.624	n/a	121312	dot_no2_OFF	22	n/a	n/a	8
243.944	n/a	121972	dot_no7_ON	17	n/a	n/a	8
244.534	n/a	122267	dot_no7_OFF	27	n/a	n/a	8
245.856	n/a	122928	dot_no3_ON	13	n/a	n/a	8
246.444	n/a	123222	dot_no3_OFF	23	n/a	n/a	8
247.764	n/a	123882	dot_no8_ON	18	n/a	n/a	8
248.354	n/a	124177	dot_no8_OFF	28	n/a	n/a	8
249.674	n/a	124837	dot_no5_ON	15	n/a	n/a	8
250.264	n/a	125132	dot_no5_OFF	25	n/a	n/a	8
251.584	n/a	125792	dot_no2_ON	12	n/a	n/a	8
252.174	n/a	126087	dot_no2_OFF	22	n/a	n/a	8
253.494	n/a	126747	dot_no7_ON	17	n/a	n/a	8
254.084	n/a	127042	dot_no7_OFF	27	1-6-4-2-7-3-8-5-2-1	1-6-4-2-7-3-8-5-2-7	8
274.998	n/a	137499	learningBlock_5	35	n/a	n/a	8
275.016	n/a	137508	dot_no1_ON	11	n/a	n/a	8
275.604	n/a	137802	dot_no1_OFF	21	n/a	n/a	8
276.924	n/a	138462	dot_no6_ON	16	n/a	n/a	8
277.514	n/a	138757	dot_no6_OFF	26	n/a	n/a	8
278.834	n/a	139417	dot_no4_ON	14	n/a	n/a	8
279.424	n/a	139712	dot_no4_OFF	24	n/a	n/a	8
280.746	n/a	140373	dot_no2_ON	12	n/a	n/a	8
281.334	n/a	140667	dot_no2_OFF	22	n/a	n/a	8
282.654	n/a	141327	dot_no7_ON	17	n/a	n/a	8
283.244	n/a	141622	dot_no7_OFF	27	n/a	n/a	8
284.564	n/a	142282	dot_no3_ON	13	n/a	n/a	8
285.154	n/a	142577	dot_no3_OFF	23	n/a	n/a	8
286.474	n/a	143237	dot_no8_ON	18	n/a	n/a	8
287.064	n/a	143532	dot_no8_OFF	28	n/a	n/a	8
288.386	n/a	144193	dot_no5_ON	15	n/a	n/a	8
288.974	n/a	144487	dot_no5_OFF	25	n/a	n/a	8
290.294	n/a	145147	dot_no2_ON	12	n/a	n/a	8
290.884	n/a	145442	dot_no2_OFF	22	n/a	n/a	8
292.204	n/a	146102	dot_no7_ON	17	n/a	n/a	8
292.794	n/a	146397	dot_no7_OFF	27	1-6-4-2-7-3-8-5-2-7	1-6-4-2-7-3-8-5-2-7	8
310.316	n/a	155158	seqLearning_stop	50	n/a	n/a	8
311.101	n/a	155550.5	boundary	boundary	n/a	n/a	8
