onset	duration	sample	value	event_code	user_answer	correct_answer	target_count
0	n/a	0	break cnt	break cnt	n/a	n/a	8
62.768	n/a	31384	seqLearning_start	91	n/a	n/a	8
72.076	n/a	36038	learningBlock_1	31	n/a	n/a	8
72.094	n/a	36047	dot_no1_ON	11	n/a	n/a	8
72.684	n/a	36342	dot_no1_OFF	21	n/a	n/a	8
74.004	n/a	37002	dot_no6_ON	16	n/a	n/a	8
74.592	n/a	37296	dot_no6_OFF	26	n/a	n/a	8
75.914	n/a	37957	dot_no4_ON	14	n/a	n/a	8
76.502	n/a	38251	dot_no4_OFF	24	n/a	n/a	8
77.824	n/a	38912	dot_no2_ON	12	n/a	n/a	8
78.412	n/a	39206	dot_no2_OFF	22	n/a	n/a	8
79.734	n/a	39867	dot_no7_ON	17	n/a	n/a	8
80.324	n/a	40162	dot_no7_OFF	27	n/a	n/a	8
81.644	n/a	40822	dot_no3_ON	13	n/a	n/a	8
82.232	n/a	41116	dot_no3_OFF	23	n/a	n/a	8
83.554	n/a	41777	dot_no8_ON	18	n/a	n/a	8
84.142	n/a	42071	dot_no8_OFF	28	n/a	n/a	8
85.464	n/a	42732	dot_no5_ON	15	n/a	n/a	8
86.052	n/a	43026	dot_no5_OFF	25	n/a	n/a	8
87.374	n/a	43687	dot_no2_ON	12	n/a	n/a	8
87.962	n/a	43981	dot_no2_OFF	22	n/a	n/a	8
89.284	n/a	44642	dot_no7_ON	17	n/a	n/a	8
89.872	n/a	44936	dot_no7_OFF	27	1-6-4-8-3-5-2-7-4-1	1-6-4-2-7-3-8-5-2-7	8
123.518	n/a	61759	learningBlock_2	32	n/a	n/a	8
123.534	n/a	61767	dot_no1_ON	11	n/a	n/a	8
124.122	n/a	62061	dot_no1_OFF	21	n/a	n/a	8
125.444	n/a	62722	dot_no6_ON	16	n/a	n/a	8
126.032	n/a	63016	dot_no6_OFF	26	n/a	n/a	8
127.354	n/a	63677	dot_no4_ON	14	n/a	n/a	8
127.942	n/a	63971	dot_no4_OFF	24	n/a	n/a	8
129.264	n/a	64632	dot_no2_ON	12	n/a	n/a	8
129.852	n/a	64926	dot_no2_OFF	22	n/a	n/a	8
131.174	n/a	65587	dot_no7_ON	17	n/a	n/a	8
131.762	n/a	65881	dot_no7_OFF	27	n/a	n/a	8
133.084	n/a	66542	dot_no3_ON	13	n/a	n/a	8
133.672	n/a	66836	dot_no3_OFF	23	n/a	n/a	8
134.994	n/a	67497	dot_no8_ON	18	n/a	n/a	8
135.584	n/a	67792	dot_no8_OFF	28	n/a	n/a	8
136.904	n/a	68452	dot_no5_ON	15	n/a	n/a	8
137.494	n/a	68747	dot_no5_OFF	25	n/a	n/a	8
138.814	n/a	69407	dot_no2_ON	12	n/a	n/a	8
139.402	n/a	69701	dot_no2_OFF	22	n/a	n/a	8
140.724	n/a	70362	dot_no7_ON	17	n/a	n/a	8
141.314	n/a	70657	dot_no7_OFF	27	1-6-4-2-7-3-5-8-5-2	1-6-4-2-7-3-8-5-2-7	8
174.008	n/a	87004	learningBlock_3	33	n/a	n/a	8
174.014	n/a	87007	dot_no1_ON	11	n/a	n/a	8
174.602	n/a	87301	dot_no1_OFF	21	n/a	n/a	8
175.924	n/a	87962	dot_no6_ON	16	n/a	n/a	8
176.512	n/a	88256	dot_no6_OFF	26	n/a	n/a	8
177.834	n/a	88917	dot_no4_ON	14	n/a	n/a	8
178.424	n/a	89212	dot_no4_OFF	24	n/a	n/a	8
179.744	n/a	89872	dot_no2_ON	12	n/a	n/a	8
180.334	n/a	90167	dot_no2_OFF	22	n/a	n/a	8
181.654	n/a	90827	dot_no7_ON	17	n/a	n/a	8
182.244	n/a	91122	dot_no7_OFF	27	n/a	n/a	8
183.564	n/a	91782	dot_no3_ON	13	n/a	n/a	8
184.152	n/a	92076	dot_no3_OFF	23	n/a	n/a	8
185.474	n/a	92737	dot_no8_ON	18	n/a	n/a	8
186.062	n/a	93031	dot_no8_OFF	28	n/a	n/a	8
187.384	n/a	93692	dot_no5_ON	15	n/a	n/a	8
187.974	n/a	93987	dot_no5_OFF	25	n/a	n/a	8
189.294	n/a	94647	dot_no2_ON	12	n/a	n/a	8
189.884	n/a	94942	dot_no2_OFF	22	n/a	n/a	8
191.204	n/a	95602	dot_no7_ON	17	n/a	n/a	8
191.794	n/a	95897	dot_no7_OFF	27	1-6-4-2-7-5-3-8-2-7	1-6-4-2-7-3-8-5-2-7	8
229.618	n/a	114809	learningBlock_4	34	n/a	n/a	8
229.624	n/a	114812	dot_no1_ON	11	n/a	n/a	8
230.214	n/a	115107	dot_no1_OFF	21	n/a	n/a	8
231.534	n/a	115767	dot_no6_ON	16	n/a	n/a	8
232.124	n/a	116062	dot_no6_OFF	26	n/a	n/a	8
233.444	n/a	116722	dot_no4_ON	14	n/a	n/a	8
234.034	n/a	117017	dot_no4_OFF	24	n/a	n/a	8
235.354	n/a	117677	dot_no2_ON	12	n/a	n/a	8
235.944	n/a	117972	dot_no2_OFF	22	n/a	n/a	8
237.264	n/a	118632	dot_no7_ON	17	n/a	n/a	8
237.854	n/a	118927	dot_no7_OFF	27	n/a	n/a	8
239.174	n/a	119587	dot_no3_ON	13	n/a	n/a	8
239.764	n/a	119882	dot_no3_OFF	23	n/a	n/a	8
241.084	n/a	120542	dot_no8_ON	18	n/a	n/a	8
241.674	n/a	120837	dot_no8_OFF	28	n/a	n/a	8
242.994	n/a	121497	dot_no5_ON	15	n/a	n/a	8
243.584	n/a	121792	dot_no5_OFF	25	n/a	n/a	8
244.904	n/a	122452	dot_no2_ON	12	n/a	n/a	8
245.494	n/a	122747	dot_no2_OFF	22	n/a	n/a	8
246.814	n/a	123407	dot_no7_ON	17	n/a	n/a	8
247.402	n/a	123701	dot_no7_OFF	27	1-1-6-4-2-8-5-3-2-7	1-6-4-2-7-3-8-5-2-7	8
280.468	n/a	140234	learningBlock_5	35	n/a	n/a	8
280.474	n/a	140237	dot_no1_ON	11	n/a	n/a	8
281.064	n/a	140532	dot_no1_OFF	21	n/a	n/a	8
282.384	n/a	141192	dot_no6_ON	16	n/a	n/a	8
282.974	n/a	141487	dot_no6_OFF	26	n/a	n/a	8
284.294	n/a	142147	dot_no4_ON	14	n/a	n/a	8
284.884	n/a	142442	dot_no4_OFF	24	n/a	n/a	8
286.204	n/a	143102	dot_no2_ON	12	n/a	n/a	8
286.794	n/a	143397	dot_no2_OFF	22	n/a	n/a	8
288.114	n/a	144057	dot_no7_ON	17	n/a	n/a	8
288.704	n/a	144352	dot_no7_OFF	27	n/a	n/a	8
290.024	n/a	145012	dot_no3_ON	13	n/a	n/a	8
290.614	n/a	145307	dot_no3_OFF	23	n/a	n/a	8
291.936	n/a	145968	dot_no8_ON	18	n/a	n/a	8
292.524	n/a	146262	dot_no8_OFF	28	n/a	n/a	8
293.844	n/a	146922	dot_no5_ON	15	n/a	n/a	8
294.434	n/a	147217	dot_no5_OFF	25	n/a	n/a	8
295.754	n/a	147877	dot_no2_ON	12	n/a	n/a	8
296.344	n/a	148172	dot_no2_OFF	22	n/a	n/a	8
297.664	n/a	148832	dot_no7_ON	17	n/a	n/a	8
298.254	n/a	149127	dot_no7_OFF	27	1-6-4-2-7-3-5-8-2-7	1-6-4-2-7-3-8-5-2-7	8
321.756	n/a	160878	seqLearning_stop	50	n/a	n/a	8
322.503	n/a	161251.5	boundary	boundary	n/a	n/a	8
