onset	duration	sample	value	event_code	user_answer	correct_answer	target_count
0	n/a	0	break cnt	break cnt	n/a	n/a	8
36.448	n/a	18224	seqLearning_start	91	n/a	n/a	8
42.722	n/a	21361	learningBlock_1	31	n/a	n/a	8
42.744	n/a	21372	dot_no1_ON	11	n/a	n/a	8
43.334	n/a	21667	dot_no1_OFF	21	n/a	n/a	8
44.652	n/a	22326	dot_no6_ON	16	n/a	n/a	8
45.242	n/a	22621	dot_no6_OFF	26	n/a	n/a	8
46.562	n/a	23281	dot_no4_ON	14	n/a	n/a	8
47.142	n/a	23571	dot_no4_OFF	24	n/a	n/a	8
48.462	n/a	24231	dot_no2_ON	12	n/a	n/a	8
49.042	n/a	24521	dot_no2_OFF	22	n/a	n/a	8
50.362	n/a	25181	dot_no7_ON	17	n/a	n/a	8
50.942	n/a	25471	dot_no7_OFF	27	n/a	n/a	8
52.262	n/a	26131	dot_no3_ON	13	n/a	n/a	8
52.842	n/a	26421	dot_no3_OFF	23	n/a	n/a	8
54.162	n/a	27081	dot_no8_ON	18	n/a	n/a	8
54.752	n/a	27376	dot_no8_OFF	28	n/a	n/a	8
56.072	n/a	28036	dot_no5_ON	15	n/a	n/a	8
56.652	n/a	28326	dot_no5_OFF	25	n/a	n/a	8
57.972	n/a	28986	dot_no2_ON	12	n/a	n/a	8
58.552	n/a	29276	dot_no2_OFF	22	n/a	n/a	8
59.872	n/a	29936	dot_no7_ON	17	n/a	n/a	8
60.452	n/a	30226	dot_no7_OFF	27	1-6-4-8-5-2-3-7-7-6	1-6-4-2-7-3-8-5-2-7	8
100.286	n/a	50143	learningBlock_2	32	n/a	n/a	8
100.294	n/a	50147	dot_no1_ON	11	n/a	n/a	8
100.874	n/a	50437	dot_no1_OFF	21	n/a	n/a	8
102.194	n/a	51097	dot_no6_ON	16	n/a	n/a	8
102.774	n/a	51387	dot_no6_OFF	26	n/a	n/a	8
104.094	n/a	52047	dot_no4_ON	14	n/a	n/a	8
104.674	n/a	52337	dot_no4_OFF	24	n/a	n/a	8
105.994	n/a	52997	dot_no2_ON	12	n/a	n/a	8
106.574	n/a	53287	dot_no2_OFF	22	n/a	n/a	8
107.894	n/a	53947	dot_no7_ON	17	n/a	n/a	8
108.474	n/a	54237	dot_no7_OFF	27	n/a	n/a	8
109.794	n/a	54897	dot_no3_ON	13	n/a	n/a	8
110.374	n/a	55187	dot_no3_OFF	23	n/a	n/a	8
111.694	n/a	55847	dot_no8_ON	18	n/a	n/a	8
112.274	n/a	56137	dot_no8_OFF	28	n/a	n/a	8
113.594	n/a	56797	dot_no5_ON	15	n/a	n/a	8
114.174	n/a	57087	dot_no5_OFF	25	n/a	n/a	8
115.494	n/a	57747	dot_no2_ON	12	n/a	n/a	8
116.074	n/a	58037	dot_no2_OFF	22	n/a	n/a	8
117.394	n/a	58697	dot_no7_ON	17	n/a	n/a	8
117.974	n/a	58987	dot_no7_OFF	27	1-6-4-8-7-3-5-2-7-3	1-6-4-2-7-3-8-5-2-7	8
146.146	n/a	73073	learningBlock_3	33	n/a	n/a	8
146.154	n/a	73077	dot_no1_ON	11	n/a	n/a	8
146.734	n/a	73367	dot_no1_OFF	21	n/a	n/a	8
148.054	n/a	74027	dot_no6_ON	16	n/a	n/a	8
148.634	n/a	74317	dot_no6_OFF	26	n/a	n/a	8
149.954	n/a	74977	dot_no4_ON	14	n/a	n/a	8
150.534	n/a	75267	dot_no4_OFF	24	n/a	n/a	8
151.856	n/a	75928	dot_no2_ON	12	n/a	n/a	8
152.434	n/a	76217	dot_no2_OFF	22	n/a	n/a	8
153.754	n/a	76877	dot_no7_ON	17	n/a	n/a	8
154.334	n/a	77167	dot_no7_OFF	27	n/a	n/a	8
155.654	n/a	77827	dot_no3_ON	13	n/a	n/a	8
156.236	n/a	78118	dot_no3_OFF	23	n/a	n/a	8
157.556	n/a	78778	dot_no8_ON	18	n/a	n/a	8
158.136	n/a	79068	dot_no8_OFF	28	n/a	n/a	8
159.456	n/a	79728	dot_no5_ON	15	n/a	n/a	8
160.036	n/a	80018	dot_no5_OFF	25	n/a	n/a	8
161.356	n/a	80678	dot_no2_ON	12	n/a	n/a	8
161.936	n/a	80968	dot_no2_OFF	22	n/a	n/a	8
163.256	n/a	81628	dot_no7_ON	17	n/a	n/a	8
163.846	n/a	81923	dot_no7_OFF	27	1-6-2-4-8-5-7-3-2-5	1-6-4-2-7-3-8-5-2-7	8
188.278	n/a	94139	learningBlock_4	34	n/a	n/a	8
188.286	n/a	94143	dot_no1_ON	11	n/a	n/a	8
188.866	n/a	94433	dot_no1_OFF	21	n/a	n/a	8
190.186	n/a	95093	dot_no6_ON	16	n/a	n/a	8
190.766	n/a	95383	dot_no6_OFF	26	n/a	n/a	8
192.086	n/a	96043	dot_no4_ON	14	n/a	n/a	8
192.666	n/a	96333	dot_no4_OFF	24	n/a	n/a	8
193.986	n/a	96993	dot_no2_ON	12	n/a	n/a	8
194.566	n/a	97283	dot_no2_OFF	22	n/a	n/a	8
195.886	n/a	97943	dot_no7_ON	17	n/a	n/a	8
196.466	n/a	98233	dot_no7_OFF	27	n/a	n/a	8
197.786	n/a	98893	dot_no3_ON	13	n/a	n/a	8
198.366	n/a	99183	dot_no3_OFF	23	n/a	n/a	8
199.686	n/a	99843	dot_no8_ON	18	n/a	n/a	8
200.266	n/a	100133	dot_no8_OFF	28	n/a	n/a	8
201.586	n/a	100793	dot_no5_ON	15	n/a	n/a	8
202.176	n/a	101088	dot_no5_OFF	25	n/a	n/a	8
203.496	n/a	101748	dot_no2_ON	12	n/a	n/a	8
204.076	n/a	102038	dot_no2_OFF	22	n/a	n/a	8
205.396	n/a	102698	dot_no7_ON	17	n/a	n/a	8
205.976	n/a	102988	dot_no7_OFF	27	1-6-4-2-8-3-5-4-7-7	1-6-4-2-7-3-8-5-2-7	8
228.71	n/a	114355	learningBlock_5	35	n/a	n/a	8
228.718	n/a	114359	dot_no1_ON	11	n/a	n/a	8
229.296	n/a	114648	dot_no1_OFF	21	n/a	n/a	8
230.616	n/a	115308	dot_no6_ON	16	n/a	n/a	8
231.196	n/a	115598	dot_no6_OFF	26	n/a	n/a	8
232.516	n/a	116258	dot_no4_ON	14	n/a	n/a	8
233.096	n/a	116548	dot_no4_OFF	24	n/a	n/a	8
234.418	n/a	117209	dot_no2_ON	12	n/a	n/a	8
234.996	n/a	117498	dot_no2_OFF	22	n/a	n/a	8
236.316	n/a	118158	dot_no7_ON	17	n/a	n/a	8
236.896	n/a	118448	dot_no7_OFF	27	n/a	n/a	8
238.216	n/a	119108	dot_no3_ON	13	n/a	n/a	8
238.796	n/a	119398	dot_no3_OFF	23	n/a	n/a	8
240.116	n/a	120058	dot_no8_ON	18	n/a	n/a	8
240.698	n/a	120349	dot_no8_OFF	28	n/a	n/a	8
242.018	n/a	121009	dot_no5_ON	15	n/a	n/a	8
242.608	n/a	121304	dot_no5_OFF	25	n/a	n/a	8
243.928	n/a	121964	dot_no2_ON	12	n/a	n/a	8
244.508	n/a	122254	dot_no2_OFF	22	n/a	n/a	8
245.828	n/a	122914	dot_no7_ON	17	n/a	n/a	8
246.418	n/a	123209	dot_no7_OFF	27	1-6-4-2-3-5-8-7-5-7	1-6-4-2-7-3-8-5-2-7	8
268.62	n/a	134310	seqLearning_stop	50	n/a	n/a	8
270.081	n/a	135040.5	boundary	boundary	n/a	n/a	8
