onset	duration	sample	value	event_code	user_answer	correct_answer	target_count
0	n/a	0	break cnt	break cnt	n/a	n/a	8
36.18	n/a	18090	seqLearning_start	91	n/a	n/a	8
45.508	n/a	22754	learningBlock_1	31	n/a	n/a	8
45.526	n/a	22763	dot_no1_ON	11	n/a	n/a	8
46.116	n/a	23058	dot_no1_OFF	21	n/a	n/a	8
47.436	n/a	23718	dot_no6_ON	16	n/a	n/a	8
48.024	n/a	24012	dot_no6_OFF	26	n/a	n/a	8
49.346	n/a	24673	dot_no4_ON	14	n/a	n/a	8
49.936	n/a	24968	dot_no4_OFF	24	n/a	n/a	8
51.256	n/a	25628	dot_no2_ON	12	n/a	n/a	8
51.844	n/a	25922	dot_no2_OFF	22	n/a	n/a	8
53.166	n/a	26583	dot_no7_ON	17	n/a	n/a	8
53.754	n/a	26877	dot_no7_OFF	27	n/a	n/a	8
55.076	n/a	27538	dot_no3_ON	13	n/a	n/a	8
55.664	n/a	27832	dot_no3_OFF	23	n/a	n/a	8
56.986	n/a	28493	dot_no8_ON	18	n/a	n/a	8
57.574	n/a	28787	dot_no8_OFF	28	n/a	n/a	8
58.896	n/a	29448	dot_no5_ON	15	n/a	n/a	8
59.484	n/a	29742	dot_no5_OFF	25	n/a	n/a	8
60.806	n/a	30403	dot_no2_ON	12	n/a	n/a	8
61.394	n/a	30697	dot_no2_OFF	22	n/a	n/a	8
62.716	n/a	31358	dot_no7_ON	17	n/a	n/a	8
63.304	n/a	31652	dot_no7_OFF	27	1-6-4-2-8-5-5-7-3-5	1-6-4-2-7-3-8-5-2-7	8
93.848	n/a	46924	learningBlock_2	32	n/a	n/a	8
93.856	n/a	46928	dot_no1_ON	11	n/a	n/a	8
94.444	n/a	47222	dot_no1_OFF	21	n/a	n/a	8
95.766	n/a	47883	dot_no6_ON	16	n/a	n/a	8
96.354	n/a	48177	dot_no6_OFF	26	n/a	n/a	8
97.676	n/a	48838	dot_no4_ON	14	n/a	n/a	8
98.266	n/a	49133	dot_no4_OFF	24	n/a	n/a	8
99.586	n/a	49793	dot_no2_ON	12	n/a	n/a	8
100.174	n/a	50087	dot_no2_OFF	22	n/a	n/a	8
101.496	n/a	50748	dot_no7_ON	17	n/a	n/a	8
102.084	n/a	51042	dot_no7_OFF	27	n/a	n/a	8
103.406	n/a	51703	dot_no3_ON	13	n/a	n/a	8
103.994	n/a	51997	dot_no3_OFF	23	n/a	n/a	8
105.316	n/a	52658	dot_no8_ON	18	n/a	n/a	8
105.904	n/a	52952	dot_no8_OFF	28	n/a	n/a	8
107.226	n/a	53613	dot_no5_ON	15	n/a	n/a	8
107.814	n/a	53907	dot_no5_OFF	25	n/a	n/a	8
109.136	n/a	54568	dot_no2_ON	12	n/a	n/a	8
109.724	n/a	54862	dot_no2_OFF	22	n/a	n/a	8
111.046	n/a	55523	dot_no7_ON	17	n/a	n/a	8
111.634	n/a	55817	dot_no7_OFF	27	1-6-4-2-7-3-5-8-2-7	1-6-4-2-7-3-8-5-2-7	8
136.43	n/a	68215	learningBlock_3	33	n/a	n/a	8
136.446	n/a	68223	dot_no1_ON	11	n/a	n/a	8
137.034	n/a	68517	dot_no1_OFF	21	n/a	n/a	8
138.356	n/a	69178	dot_no6_ON	16	n/a	n/a	8
138.944	n/a	69472	dot_no6_OFF	26	n/a	n/a	8
140.266	n/a	70133	dot_no4_ON	14	n/a	n/a	8
140.856	n/a	70428	dot_no4_OFF	24	n/a	n/a	8
142.176	n/a	71088	dot_no2_ON	12	n/a	n/a	8
142.766	n/a	71383	dot_no2_OFF	22	n/a	n/a	8
144.086	n/a	72043	dot_no7_ON	17	n/a	n/a	8
144.674	n/a	72337	dot_no7_OFF	27	n/a	n/a	8
145.996	n/a	72998	dot_no3_ON	13	n/a	n/a	8
146.586	n/a	73293	dot_no3_OFF	23	n/a	n/a	8
147.906	n/a	73953	dot_no8_ON	18	n/a	n/a	8
148.496	n/a	74248	dot_no8_OFF	28	n/a	n/a	8
149.816	n/a	74908	dot_no5_ON	15	n/a	n/a	8
150.404	n/a	75202	dot_no5_OFF	25	n/a	n/a	8
151.726	n/a	75863	dot_no2_ON	12	n/a	n/a	8
152.316	n/a	76158	dot_no2_OFF	22	n/a	n/a	8
153.636	n/a	76818	dot_no7_ON	17	n/a	n/a	8
154.224	n/a	77112	dot_no7_OFF	27	1-6-4-2-7-8-5-3-2-7	1-6-4-2-7-3-8-5-2-7	8
176.198	n/a	88099	learningBlock_4	34	n/a	n/a	8
176.206	n/a	88103	dot_no1_ON	11	n/a	n/a	8
176.796	n/a	88398	dot_no1_OFF	21	n/a	n/a	8
178.116	n/a	89058	dot_no6_ON	16	n/a	n/a	8
178.704	n/a	89352	dot_no6_OFF	26	n/a	n/a	8
180.026	n/a	90013	dot_no4_ON	14	n/a	n/a	8
180.616	n/a	90308	dot_no4_OFF	24	n/a	n/a	8
181.936	n/a	90968	dot_no2_ON	12	n/a	n/a	8
182.526	n/a	91263	dot_no2_OFF	22	n/a	n/a	8
183.846	n/a	91923	dot_no7_ON	17	n/a	n/a	8
184.436	n/a	92218	dot_no7_OFF	27	n/a	n/a	8
185.756	n/a	92878	dot_no3_ON	13	n/a	n/a	8
186.346	n/a	93173	dot_no3_OFF	23	n/a	n/a	8
187.666	n/a	93833	dot_no8_ON	18	n/a	n/a	8
188.254	n/a	94127	dot_no8_OFF	28	n/a	n/a	8
189.576	n/a	94788	dot_no5_ON	15	n/a	n/a	8
190.164	n/a	95082	dot_no5_OFF	25	n/a	n/a	8
191.486	n/a	95743	dot_no2_ON	12	n/a	n/a	8
192.076	n/a	96038	dot_no2_OFF	22	n/a	n/a	8
193.396	n/a	96698	dot_no7_ON	17	n/a	n/a	8
193.984	n/a	96992	dot_no7_OFF	27	1-6-4-2-7-3-8-5-2-7	1-6-4-2-7-3-8-5-2-7	8
215.268	n/a	107634	learningBlock_5	35	n/a	n/a	8
215.276	n/a	107638	dot_no1_ON	11	n/a	n/a	8
215.866	n/a	107933	dot_no1_OFF	21	n/a	n/a	8
217.186	n/a	108593	dot_no6_ON	16	n/a	n/a	8
217.776	n/a	108888	dot_no6_OFF	26	n/a	n/a	8
219.096	n/a	109548	dot_no4_ON	14	n/a	n/a	8
219.686	n/a	109843	dot_no4_OFF	24	n/a	n/a	8
221.006	n/a	110503	dot_no2_ON	12	n/a	n/a	8
221.594	n/a	110797	dot_no2_OFF	22	n/a	n/a	8
222.916	n/a	111458	dot_no7_ON	17	n/a	n/a	8
223.506	n/a	111753	dot_no7_OFF	27	n/a	n/a	8
224.826	n/a	112413	dot_no3_ON	13	n/a	n/a	8
225.416	n/a	112708	dot_no3_OFF	23	n/a	n/a	8
226.736	n/a	113368	dot_no8_ON	18	n/a	n/a	8
227.326	n/a	113663	dot_no8_OFF	28	n/a	n/a	8
228.646	n/a	114323	dot_no5_ON	15	n/a	n/a	8
229.236	n/a	114618	dot_no5_OFF	25	n/a	n/a	8
230.556	n/a	115278	dot_no2_ON	12	n/a	n/a	8
231.144	n/a	115572	dot_no2_OFF	22	n/a	n/a	8
232.466	n/a	116233	dot_no7_ON	17	n/a	n/a	8
233.054	n/a	116527	dot_no7_OFF	27	1-6-4-2-7-3-8-5-2-7	1-6-4-2-7-3-8-5-2-7	8
249.846	n/a	124923	seqLearning_stop	50	n/a	n/a	8
250.603	n/a	125301.5	boundary	boundary	n/a	n/a	8
