onset	duration	sample	value	event_code	user_answer	correct_answer	target_count
0	n/a	0	break cnt	break cnt	n/a	n/a	6
28.11	n/a	14055	seqLearning_start	91	n/a	n/a	6
34.37	n/a	17185	learningBlock_1	31	n/a	n/a	6
34.396	n/a	17198	dot_no1_ON	11	n/a	n/a	6
34.984	n/a	17492	dot_no1_OFF	21	n/a	n/a	6
36.304	n/a	18152	dot_no6_ON	16	n/a	n/a	6
36.884	n/a	18442	dot_no6_OFF	26	n/a	n/a	6
38.204	n/a	19102	dot_no4_ON	14	n/a	n/a	6
38.784	n/a	19392	dot_no4_OFF	24	n/a	n/a	6
40.104	n/a	20052	dot_no2_ON	12	n/a	n/a	6
40.684	n/a	20342	dot_no2_OFF	22	n/a	n/a	6
42.004	n/a	21002	dot_no3_ON	13	n/a	n/a	6
42.584	n/a	21292	dot_no3_OFF	23	n/a	n/a	6
43.904	n/a	21952	dot_no5_ON	15	n/a	n/a	6
44.494	n/a	22247	dot_no5_OFF	25	n/a	n/a	6
45.814	n/a	22907	dot_no2_ON	12	n/a	n/a	6
46.394	n/a	23197	dot_no2_OFF	22	1-6-5-4-2-4-1	1-6-4-2-3-5-2	6
97.388	n/a	48694	learningBlock_2	32	n/a	n/a	6
97.394	n/a	48697	dot_no1_ON	11	n/a	n/a	6
97.974	n/a	48987	dot_no1_OFF	21	n/a	n/a	6
99.294	n/a	49647	dot_no6_ON	16	n/a	n/a	6
99.876	n/a	49938	dot_no6_OFF	26	n/a	n/a	6
101.196	n/a	50598	dot_no4_ON	14	n/a	n/a	6
101.776	n/a	50888	dot_no4_OFF	24	n/a	n/a	6
103.096	n/a	51548	dot_no2_ON	12	n/a	n/a	6
103.676	n/a	51838	dot_no2_OFF	22	n/a	n/a	6
104.996	n/a	52498	dot_no3_ON	13	n/a	n/a	6
105.576	n/a	52788	dot_no3_OFF	23	n/a	n/a	6
106.896	n/a	53448	dot_no5_ON	15	n/a	n/a	6
107.476	n/a	53738	dot_no5_OFF	25	n/a	n/a	6
108.806	n/a	54403	dot_no2_ON	12	n/a	n/a	6
109.386	n/a	54693	dot_no2_OFF	22	1-6-4-5-3-2-6	1-6-4-2-3-5-2	6
144.898	n/a	72449	learningBlock_3	33	n/a	n/a	6
144.906	n/a	72453	dot_no1_ON	11	n/a	n/a	6
145.486	n/a	72743	dot_no1_OFF	21	n/a	n/a	6
146.806	n/a	73403	dot_no6_ON	16	n/a	n/a	6
147.396	n/a	73698	dot_no6_OFF	26	n/a	n/a	6
148.716	n/a	74358	dot_no4_ON	14	n/a	n/a	6
149.306	n/a	74653	dot_no4_OFF	24	n/a	n/a	6
150.626	n/a	75313	dot_no2_ON	12	n/a	n/a	6
151.206	n/a	75603	dot_no2_OFF	22	n/a	n/a	6
152.526	n/a	76263	dot_no3_ON	13	n/a	n/a	6
153.106	n/a	76553	dot_no3_OFF	23	n/a	n/a	6
154.426	n/a	77213	dot_no5_ON	15	n/a	n/a	6
155.006	n/a	77503	dot_no5_OFF	25	n/a	n/a	6
156.326	n/a	78163	dot_no2_ON	12	n/a	n/a	6
156.906	n/a	78453	dot_no2_OFF	22	1-6-5-4-3-2-2	1-6-4-2-3-5-2	6
185.13	n/a	92565	learningBlock_4	34	n/a	n/a	6
185.136	n/a	92568	dot_no1_ON	11	n/a	n/a	6
185.716	n/a	92858	dot_no1_OFF	21	n/a	n/a	6
187.036	n/a	93518	dot_no6_ON	16	n/a	n/a	6
187.628	n/a	93814	dot_no6_OFF	26	n/a	n/a	6
188.948	n/a	94474	dot_no4_ON	14	n/a	n/a	6
189.528	n/a	94764	dot_no4_OFF	24	n/a	n/a	6
190.848	n/a	95424	dot_no2_ON	12	n/a	n/a	6
191.428	n/a	95714	dot_no2_OFF	22	n/a	n/a	6
192.748	n/a	96374	dot_no3_ON	13	n/a	n/a	6
193.328	n/a	96664	dot_no3_OFF	23	n/a	n/a	6
194.648	n/a	97324	dot_no5_ON	15	n/a	n/a	6
195.228	n/a	97614	dot_no5_OFF	25	n/a	n/a	6
196.548	n/a	98274	dot_no2_ON	12	n/a	n/a	6
197.128	n/a	98564	dot_no2_OFF	22	1-6-4-3-2-5-2	1-6-4-2-3-5-2	6
226.41	n/a	113205	learningBlock_5	35	n/a	n/a	6
226.418	n/a	113209	dot_no1_ON	11	n/a	n/a	6
227.008	n/a	113504	dot_no1_OFF	21	n/a	n/a	6
228.328	n/a	114164	dot_no6_ON	16	n/a	n/a	6
228.908	n/a	114454	dot_no6_OFF	26	n/a	n/a	6
230.228	n/a	115114	dot_no4_ON	14	n/a	n/a	6
230.808	n/a	115404	dot_no4_OFF	24	n/a	n/a	6
232.128	n/a	116064	dot_no2_ON	12	n/a	n/a	6
232.708	n/a	116354	dot_no2_OFF	22	n/a	n/a	6
234.028	n/a	117014	dot_no3_ON	13	n/a	n/a	6
234.608	n/a	117304	dot_no3_OFF	23	n/a	n/a	6
235.928	n/a	117964	dot_no5_ON	15	n/a	n/a	6
236.508	n/a	118254	dot_no5_OFF	25	n/a	n/a	6
237.828	n/a	118914	dot_no2_ON	12	n/a	n/a	6
238.408	n/a	119204	dot_no2_OFF	22	1-6-4-3-2-5-2	1-6-4-2-3-5-2	6
259.182	n/a	129591	seqLearning_stop	50	n/a	n/a	6
260.92	n/a	130460	break cnt	break cnt	n/a	n/a	6
260.921	n/a	130460.5	boundary	boundary	n/a	n/a	6
