onset	duration	sample	value	event_code	user_answer	correct_answer	target_count
0	n/a	0	break cnt	break cnt	n/a	n/a	6
56.402	n/a	28201	seqLearning_start	91	n/a	n/a	6
65.414	n/a	32707	learningBlock_1	31	n/a	n/a	6
65.43	n/a	32715	dot_no1_ON	11	n/a	n/a	6
66.02	n/a	33010	dot_no1_OFF	21	n/a	n/a	6
67.34	n/a	33670	dot_no6_ON	16	n/a	n/a	6
67.93	n/a	33965	dot_no6_OFF	26	n/a	n/a	6
69.25	n/a	34625	dot_no4_ON	14	n/a	n/a	6
69.84	n/a	34920	dot_no4_OFF	24	n/a	n/a	6
71.16	n/a	35580	dot_no2_ON	12	n/a	n/a	6
71.75	n/a	35875	dot_no2_OFF	22	n/a	n/a	6
73.07	n/a	36535	dot_no3_ON	13	n/a	n/a	6
73.66	n/a	36830	dot_no3_OFF	23	n/a	n/a	6
74.98	n/a	37490	dot_no5_ON	15	n/a	n/a	6
75.57	n/a	37785	dot_no5_OFF	25	n/a	n/a	6
76.89	n/a	38445	dot_no2_ON	12	n/a	n/a	6
77.48	n/a	38740	dot_no2_OFF	22	1-6-3-2-4-5-2	1-6-4-2-3-5-2	6
119.242	n/a	59621	learningBlock_2	32	n/a	n/a	6
119.252	n/a	59626	dot_no1_ON	11	n/a	n/a	6
119.84	n/a	59920	dot_no1_OFF	21	n/a	n/a	6
121.16	n/a	60580	dot_no6_ON	16	n/a	n/a	6
121.75	n/a	60875	dot_no6_OFF	26	n/a	n/a	6
123.07	n/a	61535	dot_no4_ON	14	n/a	n/a	6
123.66	n/a	61830	dot_no4_OFF	24	n/a	n/a	6
124.98	n/a	62490	dot_no2_ON	12	n/a	n/a	6
125.57	n/a	62785	dot_no2_OFF	22	n/a	n/a	6
126.892	n/a	63446	dot_no3_ON	13	n/a	n/a	6
127.48	n/a	63740	dot_no3_OFF	23	n/a	n/a	6
128.802	n/a	64401	dot_no5_ON	15	n/a	n/a	6
129.39	n/a	64695	dot_no5_OFF	25	n/a	n/a	6
130.712	n/a	65356	dot_no2_ON	12	n/a	n/a	6
131.3	n/a	65650	dot_no2_OFF	22	1-5-6-3-2-4-2	1-6-4-2-3-5-2	6
156.534	n/a	78267	learningBlock_3	33	n/a	n/a	6
156.54	n/a	78270	dot_no1_ON	11	n/a	n/a	6
157.13	n/a	78565	dot_no1_OFF	21	n/a	n/a	6
158.452	n/a	79226	dot_no6_ON	16	n/a	n/a	6
159.04	n/a	79520	dot_no6_OFF	26	n/a	n/a	6
160.36	n/a	80180	dot_no4_ON	14	n/a	n/a	6
160.95	n/a	80475	dot_no4_OFF	24	n/a	n/a	6
162.272	n/a	81136	dot_no2_ON	12	n/a	n/a	6
162.86	n/a	81430	dot_no2_OFF	22	n/a	n/a	6
164.18	n/a	82090	dot_no3_ON	13	n/a	n/a	6
164.77	n/a	82385	dot_no3_OFF	23	n/a	n/a	6
166.09	n/a	83045	dot_no5_ON	15	n/a	n/a	6
166.68	n/a	83340	dot_no5_OFF	25	n/a	n/a	6
168.002	n/a	84001	dot_no2_ON	12	n/a	n/a	6
168.59	n/a	84295	dot_no2_OFF	22	1-6-4-3-2-5-6	1-6-4-2-3-5-2	6
199.594	n/a	99797	learningBlock_4	34	n/a	n/a	6
199.61	n/a	99805	dot_no1_ON	11	n/a	n/a	6
200.2	n/a	100100	dot_no1_OFF	21	n/a	n/a	6
201.522	n/a	100761	dot_no6_ON	16	n/a	n/a	6
202.11	n/a	101055	dot_no6_OFF	26	n/a	n/a	6
203.43	n/a	101715	dot_no4_ON	14	n/a	n/a	6
204.02	n/a	102010	dot_no4_OFF	24	n/a	n/a	6
205.342	n/a	102671	dot_no2_ON	12	n/a	n/a	6
205.93	n/a	102965	dot_no2_OFF	22	n/a	n/a	6
207.252	n/a	103626	dot_no3_ON	13	n/a	n/a	6
207.84	n/a	103920	dot_no3_OFF	23	n/a	n/a	6
209.162	n/a	104581	dot_no5_ON	15	n/a	n/a	6
209.75	n/a	104875	dot_no5_OFF	25	n/a	n/a	6
211.07	n/a	105535	dot_no2_ON	12	n/a	n/a	6
211.66	n/a	105830	dot_no2_OFF	22	1-6-5-3-4-2-5	1-6-4-2-3-5-2	6
236.794	n/a	118397	learningBlock_5	35	n/a	n/a	6
236.802	n/a	118401	dot_no1_ON	11	n/a	n/a	6
237.39	n/a	118695	dot_no1_OFF	21	n/a	n/a	6
238.712	n/a	119356	dot_no6_ON	16	n/a	n/a	6
239.3	n/a	119650	dot_no6_OFF	26	n/a	n/a	6
240.622	n/a	120311	dot_no4_ON	14	n/a	n/a	6
241.21	n/a	120605	dot_no4_OFF	24	n/a	n/a	6
242.532	n/a	121266	dot_no2_ON	12	n/a	n/a	6
243.12	n/a	121560	dot_no2_OFF	22	n/a	n/a	6
244.442	n/a	122221	dot_no3_ON	13	n/a	n/a	6
245.03	n/a	122515	dot_no3_OFF	23	n/a	n/a	6
246.352	n/a	123176	dot_no5_ON	15	n/a	n/a	6
246.94	n/a	123470	dot_no5_OFF	25	n/a	n/a	6
248.262	n/a	124131	dot_no2_ON	12	n/a	n/a	6
248.85	n/a	124425	dot_no2_OFF	22	1-6-4-3-2-5-2	1-6-4-2-3-5-2	6
268.692	n/a	134346	seqLearning_stop	50	n/a	n/a	6
269.453	n/a	134726.5	boundary	boundary	n/a	n/a	6
