onset	duration	sample	value	event_code	user_answer	correct_answer	target_count
0	n/a	0	break cnt	break cnt	n/a	n/a	8
32.528	n/a	16264	seqLearning_start	91	n/a	n/a	8
38.804	n/a	19402	learningBlock_1	31	n/a	n/a	8
38.846	n/a	19423	dot_no1_ON	11	n/a	n/a	8
39.436	n/a	19718	dot_no1_OFF	21	n/a	n/a	8
40.756	n/a	20378	dot_no6_ON	16	n/a	n/a	8
41.336	n/a	20668	dot_no6_OFF	26	n/a	n/a	8
42.656	n/a	21328	dot_no4_ON	14	n/a	n/a	8
43.236	n/a	21618	dot_no4_OFF	24	n/a	n/a	8
44.556	n/a	22278	dot_no2_ON	12	n/a	n/a	8
45.146	n/a	22573	dot_no2_OFF	22	n/a	n/a	8
46.466	n/a	23233	dot_no7_ON	17	n/a	n/a	8
47.056	n/a	23528	dot_no7_OFF	27	n/a	n/a	8
48.376	n/a	24188	dot_no3_ON	13	n/a	n/a	8
48.956	n/a	24478	dot_no3_OFF	23	n/a	n/a	8
50.276	n/a	25138	dot_no8_ON	18	n/a	n/a	8
50.856	n/a	25428	dot_no8_OFF	28	n/a	n/a	8
52.176	n/a	26088	dot_no5_ON	15	n/a	n/a	8
52.766	n/a	26383	dot_no5_OFF	25	n/a	n/a	8
54.086	n/a	27043	dot_no2_ON	12	n/a	n/a	8
54.666	n/a	27333	dot_no2_OFF	22	n/a	n/a	8
55.986	n/a	27993	dot_no7_ON	17	n/a	n/a	8
56.566	n/a	28283	dot_no7_OFF	27	1-6-4-2-5-8-3-7-2-8	1-6-4-2-7-3-8-5-2-7	8
112.48	n/a	56240	learningBlock_2	32	n/a	n/a	8
112.488	n/a	56244	dot_no1_ON	11	n/a	n/a	8
113.068	n/a	56534	dot_no1_OFF	21	n/a	n/a	8
114.388	n/a	57194	dot_no6_ON	16	n/a	n/a	8
114.968	n/a	57484	dot_no6_OFF	26	n/a	n/a	8
116.288	n/a	58144	dot_no4_ON	14	n/a	n/a	8
116.868	n/a	58434	dot_no4_OFF	24	n/a	n/a	8
118.188	n/a	59094	dot_no2_ON	12	n/a	n/a	8
118.768	n/a	59384	dot_no2_OFF	22	n/a	n/a	8
120.088	n/a	60044	dot_no7_ON	17	n/a	n/a	8
120.668	n/a	60334	dot_no7_OFF	27	n/a	n/a	8
121.988	n/a	60994	dot_no3_ON	13	n/a	n/a	8
122.568	n/a	61284	dot_no3_OFF	23	n/a	n/a	8
123.888	n/a	61944	dot_no8_ON	18	n/a	n/a	8
124.468	n/a	62234	dot_no8_OFF	28	n/a	n/a	8
125.788	n/a	62894	dot_no5_ON	15	n/a	n/a	8
126.368	n/a	63184	dot_no5_OFF	25	n/a	n/a	8
127.688	n/a	63844	dot_no2_ON	12	n/a	n/a	8
128.268	n/a	64134	dot_no2_OFF	22	n/a	n/a	8
129.588	n/a	64794	dot_no7_ON	17	n/a	n/a	8
130.168	n/a	65084	dot_no7_OFF	27	1-6-4-2-8-5-3-7-6-4	1-6-4-2-7-3-8-5-2-7	8
171.57	n/a	85785	learningBlock_3	33	n/a	n/a	8
171.578	n/a	85789	dot_no1_ON	11	n/a	n/a	8
172.158	n/a	86079	dot_no1_OFF	21	n/a	n/a	8
173.478	n/a	86739	dot_no6_ON	16	n/a	n/a	8
174.058	n/a	87029	dot_no6_OFF	26	n/a	n/a	8
175.378	n/a	87689	dot_no4_ON	14	n/a	n/a	8
175.958	n/a	87979	dot_no4_OFF	24	n/a	n/a	8
177.278	n/a	88639	dot_no2_ON	12	n/a	n/a	8
177.858	n/a	88929	dot_no2_OFF	22	n/a	n/a	8
179.178	n/a	89589	dot_no7_ON	17	n/a	n/a	8
179.758	n/a	89879	dot_no7_OFF	27	n/a	n/a	8
181.078	n/a	90539	dot_no3_ON	13	n/a	n/a	8
181.658	n/a	90829	dot_no3_OFF	23	n/a	n/a	8
182.978	n/a	91489	dot_no8_ON	18	n/a	n/a	8
183.558	n/a	91779	dot_no8_OFF	28	n/a	n/a	8
184.878	n/a	92439	dot_no5_ON	15	n/a	n/a	8
185.458	n/a	92729	dot_no5_OFF	25	n/a	n/a	8
186.778	n/a	93389	dot_no2_ON	12	n/a	n/a	8
187.358	n/a	93679	dot_no2_OFF	22	n/a	n/a	8
188.678	n/a	94339	dot_no7_ON	17	n/a	n/a	8
189.258	n/a	94629	dot_no7_OFF	27	1-6-4-2-7-8-5-5-3-3	1-6-4-2-7-3-8-5-2-7	8
229.312	n/a	114656	learningBlock_4	34	n/a	n/a	8
229.32	n/a	114660	dot_no1_ON	11	n/a	n/a	8
229.9	n/a	114950	dot_no1_OFF	21	n/a	n/a	8
231.22	n/a	115610	dot_no6_ON	16	n/a	n/a	8
231.8	n/a	115900	dot_no6_OFF	26	n/a	n/a	8
233.12	n/a	116560	dot_no4_ON	14	n/a	n/a	8
233.7	n/a	116850	dot_no4_OFF	24	n/a	n/a	8
235.02	n/a	117510	dot_no2_ON	12	n/a	n/a	8
235.6	n/a	117800	dot_no2_OFF	22	n/a	n/a	8
236.92	n/a	118460	dot_no7_ON	17	n/a	n/a	8
237.5	n/a	118750	dot_no7_OFF	27	n/a	n/a	8
238.82	n/a	119410	dot_no3_ON	13	n/a	n/a	8
239.4	n/a	119700	dot_no3_OFF	23	n/a	n/a	8
240.72	n/a	120360	dot_no8_ON	18	n/a	n/a	8
241.3	n/a	120650	dot_no8_OFF	28	n/a	n/a	8
242.62	n/a	121310	dot_no5_ON	15	n/a	n/a	8
243.21	n/a	121605	dot_no5_OFF	25	n/a	n/a	8
244.53	n/a	122265	dot_no2_ON	12	n/a	n/a	8
245.11	n/a	122555	dot_no2_OFF	22	n/a	n/a	8
246.43	n/a	123215	dot_no7_ON	17	n/a	n/a	8
247.01	n/a	123505	dot_no7_OFF	27	1-6-4-2-7-5-3-8-7-3	1-6-4-2-7-3-8-5-2-7	8
287.644	n/a	143822	learningBlock_5	35	n/a	n/a	8
287.652	n/a	143826	dot_no1_ON	11	n/a	n/a	8
288.232	n/a	144116	dot_no1_OFF	21	n/a	n/a	8
289.552	n/a	144776	dot_no6_ON	16	n/a	n/a	8
290.132	n/a	145066	dot_no6_OFF	26	n/a	n/a	8
291.452	n/a	145726	dot_no4_ON	14	n/a	n/a	8
292.032	n/a	146016	dot_no4_OFF	24	n/a	n/a	8
293.352	n/a	146676	dot_no2_ON	12	n/a	n/a	8
293.932	n/a	146966	dot_no2_OFF	22	n/a	n/a	8
295.252	n/a	147626	dot_no7_ON	17	n/a	n/a	8
295.832	n/a	147916	dot_no7_OFF	27	n/a	n/a	8
297.152	n/a	148576	dot_no3_ON	13	n/a	n/a	8
297.732	n/a	148866	dot_no3_OFF	23	n/a	n/a	8
299.052	n/a	149526	dot_no8_ON	18	n/a	n/a	8
299.632	n/a	149816	dot_no8_OFF	28	n/a	n/a	8
300.952	n/a	150476	dot_no5_ON	15	n/a	n/a	8
301.532	n/a	150766	dot_no5_OFF	25	n/a	n/a	8
302.852	n/a	151426	dot_no2_ON	12	n/a	n/a	8
303.432	n/a	151716	dot_no2_OFF	22	n/a	n/a	8
304.752	n/a	152376	dot_no7_ON	17	n/a	n/a	8
305.342	n/a	152671	dot_no7_OFF	27	1-6-4-2-7-8-3-5-8-7	1-6-4-2-7-3-8-5-2-7	8
344.926	n/a	172463	seqLearning_stop	50	n/a	n/a	8
346.415	n/a	173207.5	boundary	boundary	n/a	n/a	8
