onset	duration	sample	value	event_code	user_answer	correct_answer	target_count
0	n/a	0	break cnt	break cnt	n/a	n/a	8
30.804	n/a	15402	seqLearning_start	91	n/a	n/a	8
37.08	n/a	18540	learningBlock_1	31	n/a	n/a	8
37.108	n/a	18554	dot_no1_ON	11	n/a	n/a	8
37.698	n/a	18849	dot_no1_OFF	21	n/a	n/a	8
39.016	n/a	19508	dot_no6_ON	16	n/a	n/a	8
39.596	n/a	19798	dot_no6_OFF	26	n/a	n/a	8
40.916	n/a	20458	dot_no4_ON	14	n/a	n/a	8
41.496	n/a	20748	dot_no4_OFF	24	n/a	n/a	8
42.816	n/a	21408	dot_no2_ON	12	n/a	n/a	8
43.396	n/a	21698	dot_no2_OFF	22	n/a	n/a	8
44.716	n/a	22358	dot_no7_ON	17	n/a	n/a	8
45.296	n/a	22648	dot_no7_OFF	27	n/a	n/a	8
46.616	n/a	23308	dot_no3_ON	13	n/a	n/a	8
47.196	n/a	23598	dot_no3_OFF	23	n/a	n/a	8
48.516	n/a	24258	dot_no8_ON	18	n/a	n/a	8
49.096	n/a	24548	dot_no8_OFF	28	n/a	n/a	8
50.416	n/a	25208	dot_no5_ON	15	n/a	n/a	8
50.996	n/a	25498	dot_no5_OFF	25	n/a	n/a	8
52.316	n/a	26158	dot_no2_ON	12	n/a	n/a	8
52.906	n/a	26453	dot_no2_OFF	22	n/a	n/a	8
54.226	n/a	27113	dot_no7_ON	17	n/a	n/a	8
54.806	n/a	27403	dot_no7_OFF	27	1-6-3-8-4-7-2-5-7-4	1-6-4-2-7-3-8-5-2-7	8
82.08	n/a	41040	learningBlock_2	32	n/a	n/a	8
82.088	n/a	41044	dot_no1_ON	11	n/a	n/a	8
82.668	n/a	41334	dot_no1_OFF	21	n/a	n/a	8
83.988	n/a	41994	dot_no6_ON	16	n/a	n/a	8
84.568	n/a	42284	dot_no6_OFF	26	n/a	n/a	8
85.888	n/a	42944	dot_no4_ON	14	n/a	n/a	8
86.468	n/a	43234	dot_no4_OFF	24	n/a	n/a	8
87.788	n/a	43894	dot_no2_ON	12	n/a	n/a	8
88.368	n/a	44184	dot_no2_OFF	22	n/a	n/a	8
89.688	n/a	44844	dot_no7_ON	17	n/a	n/a	8
90.268	n/a	45134	dot_no7_OFF	27	n/a	n/a	8
91.588	n/a	45794	dot_no3_ON	13	n/a	n/a	8
92.168	n/a	46084	dot_no3_OFF	23	n/a	n/a	8
93.488	n/a	46744	dot_no8_ON	18	n/a	n/a	8
94.068	n/a	47034	dot_no8_OFF	28	n/a	n/a	8
95.388	n/a	47694	dot_no5_ON	15	n/a	n/a	8
95.968	n/a	47984	dot_no5_OFF	25	n/a	n/a	8
97.288	n/a	48644	dot_no2_ON	12	n/a	n/a	8
97.868	n/a	48934	dot_no2_OFF	22	n/a	n/a	8
99.188	n/a	49594	dot_no7_ON	17	n/a	n/a	8
99.768	n/a	49884	dot_no7_OFF	27	1-6-4-3-8-5-2-7-4-7	1-6-4-2-7-3-8-5-2-7	8
121.942	n/a	60971	learningBlock_3	33	n/a	n/a	8
121.948	n/a	60974	dot_no1_ON	11	n/a	n/a	8
122.528	n/a	61264	dot_no1_OFF	21	n/a	n/a	8
123.848	n/a	61924	dot_no6_ON	16	n/a	n/a	8
124.428	n/a	62214	dot_no6_OFF	26	n/a	n/a	8
125.748	n/a	62874	dot_no4_ON	14	n/a	n/a	8
126.328	n/a	63164	dot_no4_OFF	24	n/a	n/a	8
127.648	n/a	63824	dot_no2_ON	12	n/a	n/a	8
128.228	n/a	64114	dot_no2_OFF	22	n/a	n/a	8
129.548	n/a	64774	dot_no7_ON	17	n/a	n/a	8
130.128	n/a	65064	dot_no7_OFF	27	n/a	n/a	8
131.448	n/a	65724	dot_no3_ON	13	n/a	n/a	8
132.028	n/a	66014	dot_no3_OFF	23	n/a	n/a	8
133.35	n/a	66675	dot_no8_ON	18	n/a	n/a	8
133.928	n/a	66964	dot_no8_OFF	28	n/a	n/a	8
135.248	n/a	67624	dot_no5_ON	15	n/a	n/a	8
135.828	n/a	67914	dot_no5_OFF	25	n/a	n/a	8
137.148	n/a	68574	dot_no2_ON	12	n/a	n/a	8
137.728	n/a	68864	dot_no2_OFF	22	n/a	n/a	8
139.048	n/a	69524	dot_no7_ON	17	n/a	n/a	8
139.628	n/a	69814	dot_no7_OFF	27	1-6-4-2-7-5-3-8-5-1	1-6-4-2-7-3-8-5-2-7	8
160.822	n/a	80411	learningBlock_4	34	n/a	n/a	8
160.828	n/a	80414	dot_no1_ON	11	n/a	n/a	8
161.41	n/a	80705	dot_no1_OFF	21	n/a	n/a	8
162.73	n/a	81365	dot_no6_ON	16	n/a	n/a	8
163.31	n/a	81655	dot_no6_OFF	26	n/a	n/a	8
164.63	n/a	82315	dot_no4_ON	14	n/a	n/a	8
165.21	n/a	82605	dot_no4_OFF	24	n/a	n/a	8
166.53	n/a	83265	dot_no2_ON	12	n/a	n/a	8
167.12	n/a	83560	dot_no2_OFF	22	n/a	n/a	8
168.44	n/a	84220	dot_no7_ON	17	n/a	n/a	8
169.02	n/a	84510	dot_no7_OFF	27	n/a	n/a	8
170.34	n/a	85170	dot_no3_ON	13	n/a	n/a	8
170.92	n/a	85460	dot_no3_OFF	23	n/a	n/a	8
172.24	n/a	86120	dot_no8_ON	18	n/a	n/a	8
172.82	n/a	86410	dot_no8_OFF	28	n/a	n/a	8
174.14	n/a	87070	dot_no5_ON	15	n/a	n/a	8
174.73	n/a	87365	dot_no5_OFF	25	n/a	n/a	8
176.05	n/a	88025	dot_no2_ON	12	n/a	n/a	8
176.63	n/a	88315	dot_no2_OFF	22	n/a	n/a	8
177.95	n/a	88975	dot_no7_ON	17	n/a	n/a	8
178.53	n/a	89265	dot_no7_OFF	27	1-6-4-2-7-5-8-3-7-1	1-6-4-2-7-3-8-5-2-7	8
203.942	n/a	101971	learningBlock_5	35	n/a	n/a	8
203.95	n/a	101975	dot_no1_ON	11	n/a	n/a	8
204.53	n/a	102265	dot_no1_OFF	21	n/a	n/a	8
205.85	n/a	102925	dot_no6_ON	16	n/a	n/a	8
206.43	n/a	103215	dot_no6_OFF	26	n/a	n/a	8
207.75	n/a	103875	dot_no4_ON	14	n/a	n/a	8
208.33	n/a	104165	dot_no4_OFF	24	n/a	n/a	8
209.65	n/a	104825	dot_no2_ON	12	n/a	n/a	8
210.24	n/a	105120	dot_no2_OFF	22	n/a	n/a	8
211.56	n/a	105780	dot_no7_ON	17	n/a	n/a	8
212.14	n/a	106070	dot_no7_OFF	27	n/a	n/a	8
213.46	n/a	106730	dot_no3_ON	13	n/a	n/a	8
214.04	n/a	107020	dot_no3_OFF	23	n/a	n/a	8
215.36	n/a	107680	dot_no8_ON	18	n/a	n/a	8
215.95	n/a	107975	dot_no8_OFF	28	n/a	n/a	8
217.27	n/a	108635	dot_no5_ON	15	n/a	n/a	8
217.85	n/a	108925	dot_no5_OFF	25	n/a	n/a	8
219.17	n/a	109585	dot_no2_ON	12	n/a	n/a	8
219.75	n/a	109875	dot_no2_OFF	22	n/a	n/a	8
221.07	n/a	110535	dot_no7_ON	17	n/a	n/a	8
221.66	n/a	110830	dot_no7_OFF	27	1-6-5-3-8-4-2-7-4-2	1-6-4-2-7-3-8-5-2-7	8
238.744	n/a	119372	seqLearning_stop	50	n/a	n/a	8
240.473	n/a	120236.5	boundary	boundary	n/a	n/a	8
