onset	duration	sample	value	event_code	user_answer	correct_answer
0	n/a	0	break cnt	break cnt	n/a	n/a
114.7	n/a	57350	symbolSearch_start	92	n/a	n/a
117.63	n/a	58815	newPage	20	n/a	n/a
123.688	n/a	61844	trialResponse	14	0	0
127.34	n/a	63670	trialResponse	14	0	1
130.496	n/a	65248	trialResponse	14	0	0
134.898	n/a	67449	trialResponse	14	0	0
153.81	n/a	76905	trialResponse	14	0	0
158.82	n/a	79410	trialResponse	14	1	1
164.344	n/a	82172	trialResponse	14	0	0
170.144	n/a	85072	trialResponse	14	0	1
174.042	n/a	87021	trialResponse	14	0	0
178.41	n/a	89205	trialResponse	14	0	0
180.61	n/a	90305	trialResponse	14	0	0
188.474	n/a	94237	trialResponse	14	1	1
212.658	n/a	106329	trialResponse	14	0	0
216.21	n/a	108105	trialResponse	14	1	1
219.698	n/a	109849	trialResponse	14	1	1
221.978	n/a	110989	newPage	20	n/a	n/a
227.12	n/a	113560	trialResponse	14	1	1
231.008	n/a	115504	trialResponse	14	0	1
235.64	n/a	117820	trialResponse	14	0	0
239.042	n/a	119521	trialResponse	14	1	1
239.056	n/a	119528	newPage	20	n/a	n/a
242.977	n/a	121488.5	boundary	boundary	n/a	n/a
