onset	duration	sample	value	event_code	user_answer	correct_answer	target_count
0	n/a	0	break cnt	break cnt	n/a	n/a	8
49.266	n/a	24633	seqLearning_start	91	n/a	n/a	8
58.574	n/a	29287	learningBlock_1	31	n/a	n/a	8
58.602	n/a	29301	dot_no1_ON	11	n/a	n/a	8
59.19	n/a	29595	dot_no1_OFF	21	n/a	n/a	8
60.512	n/a	30256	dot_no6_ON	16	n/a	n/a	8
61.1	n/a	30550	dot_no6_OFF	26	n/a	n/a	8
62.422	n/a	31211	dot_no4_ON	14	n/a	n/a	8
63.01	n/a	31505	dot_no4_OFF	24	n/a	n/a	8
64.332	n/a	32166	dot_no2_ON	12	n/a	n/a	8
64.92	n/a	32460	dot_no2_OFF	22	n/a	n/a	8
66.242	n/a	33121	dot_no7_ON	17	n/a	n/a	8
66.832	n/a	33416	dot_no7_OFF	27	n/a	n/a	8
68.152	n/a	34076	dot_no3_ON	13	n/a	n/a	8
68.74	n/a	34370	dot_no3_OFF	23	n/a	n/a	8
70.062	n/a	35031	dot_no8_ON	18	n/a	n/a	8
70.65	n/a	35325	dot_no8_OFF	28	n/a	n/a	8
71.972	n/a	35986	dot_no5_ON	15	n/a	n/a	8
72.56	n/a	36280	dot_no5_OFF	25	n/a	n/a	8
73.882	n/a	36941	dot_no2_ON	12	n/a	n/a	8
74.47	n/a	37235	dot_no2_OFF	22	n/a	n/a	8
75.792	n/a	37896	dot_no7_ON	17	n/a	n/a	8
76.38	n/a	38190	dot_no7_OFF	27	2-7-5-1-6-3-8-4-2-7	1-6-4-2-7-3-8-5-2-7	8
106.914	n/a	53457	learningBlock_2	32	n/a	n/a	8
106.922	n/a	53461	dot_no1_ON	11	n/a	n/a	8
107.51	n/a	53755	dot_no1_OFF	21	n/a	n/a	8
108.832	n/a	54416	dot_no6_ON	16	n/a	n/a	8
109.42	n/a	54710	dot_no6_OFF	26	n/a	n/a	8
110.742	n/a	55371	dot_no4_ON	14	n/a	n/a	8
111.332	n/a	55666	dot_no4_OFF	24	n/a	n/a	8
112.652	n/a	56326	dot_no2_ON	12	n/a	n/a	8
113.24	n/a	56620	dot_no2_OFF	22	n/a	n/a	8
114.562	n/a	57281	dot_no7_ON	17	n/a	n/a	8
115.15	n/a	57575	dot_no7_OFF	27	n/a	n/a	8
116.472	n/a	58236	dot_no3_ON	13	n/a	n/a	8
117.06	n/a	58530	dot_no3_OFF	23	n/a	n/a	8
118.382	n/a	59191	dot_no8_ON	18	n/a	n/a	8
118.97	n/a	59485	dot_no8_OFF	28	n/a	n/a	8
120.292	n/a	60146	dot_no5_ON	15	n/a	n/a	8
120.882	n/a	60441	dot_no5_OFF	25	n/a	n/a	8
122.202	n/a	61101	dot_no2_ON	12	n/a	n/a	8
122.79	n/a	61395	dot_no2_OFF	22	n/a	n/a	8
124.112	n/a	62056	dot_no7_ON	17	n/a	n/a	8
124.702	n/a	62351	dot_no7_OFF	27	2-7-5-8-4-1-6-3-8-5	1-6-4-2-7-3-8-5-2-7	8
157.816	n/a	78908	learningBlock_3	33	n/a	n/a	8
157.832	n/a	78916	dot_no1_ON	11	n/a	n/a	8
158.422	n/a	79211	dot_no1_OFF	21	n/a	n/a	8
159.742	n/a	79871	dot_no6_ON	16	n/a	n/a	8
160.33	n/a	80165	dot_no6_OFF	26	n/a	n/a	8
161.652	n/a	80826	dot_no4_ON	14	n/a	n/a	8
162.242	n/a	81121	dot_no4_OFF	24	n/a	n/a	8
163.562	n/a	81781	dot_no2_ON	12	n/a	n/a	8
164.15	n/a	82075	dot_no2_OFF	22	n/a	n/a	8
165.472	n/a	82736	dot_no7_ON	17	n/a	n/a	8
166.062	n/a	83031	dot_no7_OFF	27	n/a	n/a	8
167.382	n/a	83691	dot_no3_ON	13	n/a	n/a	8
167.97	n/a	83985	dot_no3_OFF	23	n/a	n/a	8
169.292	n/a	84646	dot_no8_ON	18	n/a	n/a	8
169.88	n/a	84940	dot_no8_OFF	28	n/a	n/a	8
171.202	n/a	85601	dot_no5_ON	15	n/a	n/a	8
171.792	n/a	85896	dot_no5_OFF	25	n/a	n/a	8
173.112	n/a	86556	dot_no2_ON	12	n/a	n/a	8
173.7	n/a	86850	dot_no2_OFF	22	n/a	n/a	8
175.022	n/a	87511	dot_no7_ON	17	n/a	n/a	8
175.61	n/a	87805	dot_no7_OFF	27	2-7-4-2-7-5-3-1-6-4	1-6-4-2-7-3-8-5-2-7	8
209.216	n/a	104608	learningBlock_4	34	n/a	n/a	8
209.222	n/a	104611	dot_no1_ON	11	n/a	n/a	8
209.81	n/a	104905	dot_no1_OFF	21	n/a	n/a	8
211.132	n/a	105566	dot_no6_ON	16	n/a	n/a	8
211.722	n/a	105861	dot_no6_OFF	26	n/a	n/a	8
213.042	n/a	106521	dot_no4_ON	14	n/a	n/a	8
213.63	n/a	106815	dot_no4_OFF	24	n/a	n/a	8
214.952	n/a	107476	dot_no2_ON	12	n/a	n/a	8
215.542	n/a	107771	dot_no2_OFF	22	n/a	n/a	8
216.862	n/a	108431	dot_no7_ON	17	n/a	n/a	8
217.452	n/a	108726	dot_no7_OFF	27	n/a	n/a	8
218.772	n/a	109386	dot_no3_ON	13	n/a	n/a	8
219.362	n/a	109681	dot_no3_OFF	23	n/a	n/a	8
220.682	n/a	110341	dot_no8_ON	18	n/a	n/a	8
221.272	n/a	110636	dot_no8_OFF	28	n/a	n/a	8
222.592	n/a	111296	dot_no5_ON	15	n/a	n/a	8
223.182	n/a	111591	dot_no5_OFF	25	n/a	n/a	8
224.502	n/a	112251	dot_no2_ON	12	n/a	n/a	8
225.092	n/a	112546	dot_no2_OFF	22	n/a	n/a	8
226.412	n/a	113206	dot_no7_ON	17	n/a	n/a	8
227.002	n/a	113501	dot_no7_OFF	27	1-6-4-7-3-8-5-2-5-1	1-6-4-2-7-3-8-5-2-7	8
264.758	n/a	132379	learningBlock_5	35	n/a	n/a	8
264.772	n/a	132386	dot_no1_ON	11	n/a	n/a	8
265.362	n/a	132681	dot_no1_OFF	21	n/a	n/a	8
266.682	n/a	133341	dot_no6_ON	16	n/a	n/a	8
267.272	n/a	133636	dot_no6_OFF	26	n/a	n/a	8
268.592	n/a	134296	dot_no4_ON	14	n/a	n/a	8
269.182	n/a	134591	dot_no4_OFF	24	n/a	n/a	8
270.502	n/a	135251	dot_no2_ON	12	n/a	n/a	8
271.092	n/a	135546	dot_no2_OFF	22	n/a	n/a	8
272.412	n/a	136206	dot_no7_ON	17	n/a	n/a	8
273.002	n/a	136501	dot_no7_OFF	27	n/a	n/a	8
274.322	n/a	137161	dot_no3_ON	13	n/a	n/a	8
274.912	n/a	137456	dot_no3_OFF	23	n/a	n/a	8
276.232	n/a	138116	dot_no8_ON	18	n/a	n/a	8
276.822	n/a	138411	dot_no8_OFF	28	n/a	n/a	8
278.142	n/a	139071	dot_no5_ON	15	n/a	n/a	8
278.732	n/a	139366	dot_no5_OFF	25	n/a	n/a	8
280.052	n/a	140026	dot_no2_ON	12	n/a	n/a	8
280.642	n/a	140321	dot_no2_OFF	22	n/a	n/a	8
281.962	n/a	140981	dot_no7_ON	17	n/a	n/a	8
282.552	n/a	141276	dot_no7_OFF	27	1-6-4-2-7-3-8-5-2-7	1-6-4-2-7-3-8-5-2-7	8
309.524	n/a	154762	seqLearning_stop	50	n/a	n/a	8
310.255	n/a	155127.5	boundary	boundary	n/a	n/a	8
