onset	duration	sample	value	event_code	user_answer	correct_answer	target_count
0	n/a	0	break cnt	break cnt	n/a	n/a	6
34.926	n/a	17463	seqLearning_start	91	n/a	n/a	6
41.21	n/a	20605	learningBlock_1	31	n/a	n/a	6
41.236	n/a	20618	dot_no1_ON	11	n/a	n/a	6
41.826	n/a	20913	dot_no1_OFF	21	n/a	n/a	6
43.146	n/a	21573	dot_no6_ON	16	n/a	n/a	6
43.726	n/a	21863	dot_no6_OFF	26	n/a	n/a	6
45.046	n/a	22523	dot_no4_ON	14	n/a	n/a	6
45.626	n/a	22813	dot_no4_OFF	24	n/a	n/a	6
46.946	n/a	23473	dot_no2_ON	12	n/a	n/a	6
47.526	n/a	23763	dot_no2_OFF	22	n/a	n/a	6
48.846	n/a	24423	dot_no3_ON	13	n/a	n/a	6
49.426	n/a	24713	dot_no3_OFF	23	n/a	n/a	6
50.746	n/a	25373	dot_no5_ON	15	n/a	n/a	6
51.326	n/a	25663	dot_no5_OFF	25	n/a	n/a	6
52.646	n/a	26323	dot_no2_ON	12	n/a	n/a	6
53.226	n/a	26613	dot_no2_OFF	22	4-5-6-1-2-3-2	1-6-4-2-3-5-2	6
99.98	n/a	49990	learningBlock_2	32	n/a	n/a	6
99.986	n/a	49993	dot_no1_ON	11	n/a	n/a	6
100.566	n/a	50283	dot_no1_OFF	21	n/a	n/a	6
101.886	n/a	50943	dot_no6_ON	16	n/a	n/a	6
102.466	n/a	51233	dot_no6_OFF	26	n/a	n/a	6
103.786	n/a	51893	dot_no4_ON	14	n/a	n/a	6
104.366	n/a	52183	dot_no4_OFF	24	n/a	n/a	6
105.686	n/a	52843	dot_no2_ON	12	n/a	n/a	6
106.266	n/a	53133	dot_no2_OFF	22	n/a	n/a	6
107.586	n/a	53793	dot_no3_ON	13	n/a	n/a	6
108.176	n/a	54088	dot_no3_OFF	23	n/a	n/a	6
109.496	n/a	54748	dot_no5_ON	15	n/a	n/a	6
110.076	n/a	55038	dot_no5_OFF	25	n/a	n/a	6
111.396	n/a	55698	dot_no2_ON	12	n/a	n/a	6
111.978	n/a	55989	dot_no2_OFF	22	1-2-3-4-6-5-4	1-6-4-2-3-5-2	6
147.96	n/a	73980	learningBlock_3	33	n/a	n/a	6
147.968	n/a	73984	dot_no1_ON	11	n/a	n/a	6
148.548	n/a	74274	dot_no1_OFF	21	n/a	n/a	6
149.868	n/a	74934	dot_no6_ON	16	n/a	n/a	6
150.448	n/a	75224	dot_no6_OFF	26	n/a	n/a	6
151.768	n/a	75884	dot_no4_ON	14	n/a	n/a	6
152.358	n/a	76179	dot_no4_OFF	24	n/a	n/a	6
153.678	n/a	76839	dot_no2_ON	12	n/a	n/a	6
154.258	n/a	77129	dot_no2_OFF	22	n/a	n/a	6
155.578	n/a	77789	dot_no3_ON	13	n/a	n/a	6
156.158	n/a	78079	dot_no3_OFF	23	n/a	n/a	6
157.478	n/a	78739	dot_no5_ON	15	n/a	n/a	6
158.058	n/a	79029	dot_no5_OFF	25	n/a	n/a	6
159.378	n/a	79689	dot_no2_ON	12	n/a	n/a	6
159.968	n/a	79984	dot_no2_OFF	22	5-6-4-3-2-1-1	1-6-4-2-3-5-2	6
191.3	n/a	95650	learningBlock_4	34	n/a	n/a	6
191.308	n/a	95654	dot_no1_ON	11	n/a	n/a	6
191.888	n/a	95944	dot_no1_OFF	21	n/a	n/a	6
193.208	n/a	96604	dot_no6_ON	16	n/a	n/a	6
193.788	n/a	96894	dot_no6_OFF	26	n/a	n/a	6
195.108	n/a	97554	dot_no4_ON	14	n/a	n/a	6
195.688	n/a	97844	dot_no4_OFF	24	n/a	n/a	6
197.008	n/a	98504	dot_no2_ON	12	n/a	n/a	6
197.588	n/a	98794	dot_no2_OFF	22	n/a	n/a	6
198.908	n/a	99454	dot_no3_ON	13	n/a	n/a	6
199.498	n/a	99749	dot_no3_OFF	23	n/a	n/a	6
200.818	n/a	100409	dot_no5_ON	15	n/a	n/a	6
201.398	n/a	100699	dot_no5_OFF	25	n/a	n/a	6
202.718	n/a	101359	dot_no2_ON	12	n/a	n/a	6
203.298	n/a	101649	dot_no2_OFF	22	4-5-6-1-3-2-1	1-6-4-2-3-5-2	6
264.552	n/a	132276	learningBlock_5	35	n/a	n/a	6
264.56	n/a	132280	dot_no1_ON	11	n/a	n/a	6
265.14	n/a	132570	dot_no1_OFF	21	n/a	n/a	6
266.46	n/a	133230	dot_no6_ON	16	n/a	n/a	6
267.04	n/a	133520	dot_no6_OFF	26	n/a	n/a	6
268.36	n/a	134180	dot_no4_ON	14	n/a	n/a	6
268.94	n/a	134470	dot_no4_OFF	24	n/a	n/a	6
270.26	n/a	135130	dot_no2_ON	12	n/a	n/a	6
270.84	n/a	135420	dot_no2_OFF	22	n/a	n/a	6
272.16	n/a	136080	dot_no3_ON	13	n/a	n/a	6
272.74	n/a	136370	dot_no3_OFF	23	n/a	n/a	6
274.06	n/a	137030	dot_no5_ON	15	n/a	n/a	6
274.64	n/a	137320	dot_no5_OFF	25	n/a	n/a	6
275.96	n/a	137980	dot_no2_ON	12	n/a	n/a	6
276.55	n/a	138275	dot_no2_OFF	22	1-2-3-4-5-5-6	1-6-4-2-3-5-2	6
311.954	n/a	155977	seqLearning_stop	50	n/a	n/a	6
313.771	n/a	156885.5	boundary	boundary	n/a	n/a	6
